{
    "jobId":"d00b035d-a6f6-42f5-92f1-7a5cb0166454",
    "lastUpdatedDateTime":"2025-09-05T00:09:56Z",
    "createdDateTime":"2025-09-05T00:09:53Z",
    "expirationDateTime":"2025-09-06T00:09:53Z",
    "status":"succeeded",
    "errors":[
       
    ],
    "tasks":{
       "completed":1,
       "failed":0,
       "inProgress":0,
       "total":1,
       "items":[
          {
             "kind":"HealthcareLROResults",
             "lastUpdateDateTime":"2025-09-05T00:09:56.1120406Z",
             "status":"succeeded",
             "results":{
                "documents":[
                   {
                      "id":"1",
                      "entities":[
                         {
                            "offset":4,
                            "length":6,
                            "text":"doctor",
                            "category":"HealthcareProfession",
                            "confidenceScore":0.93
                         },
                         {
                            "offset":21,
                            "length":5,
                            "text":"200mg",
                            "category":"Dosage",
                            "confidenceScore":1.0
                         },
                         {
                            "offset":27,
                            "length":9,
                            "text":"Ibuprofen",
                            "category":"MedicationName",
                            "confidenceScore":1.0,
                            "name":"ibuprofen",
                            "links":[
                               {
                                  "dataSource":"UMLS",
                                  "id":"C0020740"
                               },
                               {
                                  "dataSource":"AOD",
                                  "id":"0000019879"
                               },
                               {
                                  "dataSource":"ATC",
                                  "id":"M01AE01"
                               },
                               {
                                  "dataSource":"CCPSS",
                                  "id":"0046165"
                               },
                               {
                                  "dataSource":"CHV",
                                  "id":"0000006519"
                               },
                               {
                                  "dataSource":"CSP",
                                  "id":"2270-2077"
                               },
                               {
                                  "dataSource":"DRUGBANK",
                                  "id":"DB01050"
                               },
                               {
                                  "dataSource":"GS",
                                  "id":"1611"
                               },
                               {
                                  "dataSource":"LCH_NW",
                                  "id":"sh97005926"
                               },
                               {
                                  "dataSource":"LNC",
                                  "id":"LP16165-0"
                               },
                               {
                                  "dataSource":"MEDCIN",
                                  "id":"40458"
                               },
                               {
                                  "dataSource":"MMSL",
                                  "id":"d00015"
                               },
                               {
                                  "dataSource":"MSH",
                                  "id":"D007052"
                               },
                               {
                                  "dataSource":"MTHSPL",
                                  "id":"WK2XYI10QM"
                               },
                               {
                                  "dataSource":"NCI",
                                  "id":"C561"
                               },
                               {
                                  "dataSource":"NDDF",
                                  "id":"002377"
                               },
                               {
                                  "dataSource":"PDQ",
                                  "id":"CDR0000040475"
                               },
                               {
                                  "dataSource":"RCD",
                                  "id":"x02MO"
                               },
                               {
                                  "dataSource":"RXNORM",
                                  "id":"5640"
                               },
                               {
                                  "dataSource":"SNM",
                                  "id":"E-7772"
                               },
                               {
                                  "dataSource":"SNMI",
                                  "id":"C-603C0"
                               },
                               {
                                  "dataSource":"SNOMEDCT_US",
                                  "id":"387207008"
                               },
                               {
                                  "dataSource":"USP",
                                  "id":"m39860"
                               },
                               {
                                  "dataSource":"USPMG",
                                  "id":"MTHU000060"
                               },
                               {
                                  "dataSource":"VANDF",
                                  "id":"4017840"
                               }
                            ]
                         }
                      ],
                      "relations":[
                         {
                            "relationType":"DosageOfMedication",
                            "entities":[
                               {
                                  "ref":"#/results/documents/0/entities/1",
                                  "role":"Dosage"
                               },
                               {
                                  "ref":"#/results/documents/0/entities/2",
                                  "role":"Medication"
                               }
                            ]
                         }
                      ],
                      "warnings":[
                         
                      ],
                      "fhirBundle":{
                         "resourceType":"Bundle",
                         "id":"49da2dac-0847-4e4c-93f5-ea5d255e34f7",
                         "meta":{
                            "profile":[
                               "http://hl7.org/fhir/4.0.1/StructureDefinition/Bundle"
                            ]
                         },
                         "identifier":{
                            "system":"urn:ietf:rfc:3986",
                            "value":"urn:uuid:49da2dac-0847-4e4c-93f5-ea5d255e34f7"
                         },
                         "type":"document",
                         "entry":[
                            {
                               "fullUrl":"Composition/29d6a297-1e34-4e16-a931-56bb7063398b",
                               "resource":{
                                  "resourceType":"Composition",
                                  "id":"29d6a297-1e34-4e16-a931-56bb7063398b",
                                  "language":"en",
                                  "status":"final",
                                  "type":{
                                     "coding":[
                                        {
                                           "system":"http://loinc.org",
                                           "code":"11503-0",
                                           "display":"Medical records"
                                        }
                                     ],
                                     "text":"Medical records"
                                  },
                                  "subject":{
                                     "reference":"Patient/2035c9f3-52db-46e4-a52c-0b41859b22e3",
                                     "type":"Patient"
                                  },
                                  "encounter":{
                                     "reference":"Encounter/ed6bb295-b8e1-45a2-b6f1-4a5cef3c78c7",
                                     "type":"Encounter",
                                     "display":"unknown"
                                  },
                                  "date":"0001-01-01",
                                  "author":[
                                     {
                                        "reference":"Practitioner/a27a24c5-bd5e-4a1e-af4d-1434e683aa31",
                                        "type":"Practitioner",
                                        "display":"Unknown"
                                     }
                                  ],
                                  "title":"Medical records",
                                  "section":[
                                     {
                                        "title":"(General)",
                                        "code":{
                                           "coding":[
                                              {
                                                 "system":"",
                                                 "display":"Unrecognized Section"
                                              }
                                           ],
                                           "text":"(General)"
                                        },
                                        "author":[
                                           {
                                              "reference":"Practitioner/a27a24c5-bd5e-4a1e-af4d-1434e683aa31",
                                              "type":"Practitioner",
                                              "display":"Unknown"
                                           }
                                        ],
                                        "text":{
                                           "status":"additional",
                                           "div":"<div>\r\n\t\t\t\t\t\t\t<h1>(General)</h1>\r\n\t\t\t\t\t\t\t<p>The doctor prescried 200mg Ibuprofen.</p>\r\n\t\t\t\t\t</div>"
                                        },
                                        "entry":[
                                           {
                                              "reference":"List/a70af4c5-68e5-416c-b446-2a98d50ba35e",
                                              "type":"List",
                                              "display":"(General)"
                                           }
                                        ]
                                     }
                                  ]
                               }
                            },
                            {
                               "fullUrl":"Patient/2035c9f3-52db-46e4-a52c-0b41859b22e3",
                               "resource":{
                                  "resourceType":"Patient",
                                  "id":"2035c9f3-52db-46e4-a52c-0b41859b22e3",
                                  "language":"en",
                                  "gender":"unknown"
                               }
                            },
                            {
                               "fullUrl":"Encounter/ed6bb295-b8e1-45a2-b6f1-4a5cef3c78c7",
                               "resource":{
                                  "resourceType":"Encounter",
                                  "id":"ed6bb295-b8e1-45a2-b6f1-4a5cef3c78c7",
                                  "meta":{
                                     "profile":[
                                        "http://hl7.org/fhir/us/core/StructureDefinition/us-core-encounter"
                                     ]
                                  },
                                  "status":"finished",
                                  "class":{
                                     "system":"http://terminology.hl7.org/CodeSystem/v3-ActCode",
                                     "display":"unknown"
                                  },
                                  "subject":{
                                     "reference":"Patient/2035c9f3-52db-46e4-a52c-0b41859b22e3",
                                     "type":"Patient"
                                  }
                               }
                            },
                            {
                               "fullUrl":"List/a70af4c5-68e5-416c-b446-2a98d50ba35e",
                               "resource":{
                                  "resourceType":"List",
                                  "id":"a70af4c5-68e5-416c-b446-2a98d50ba35e",
                                  "status":"current",
                                  "mode":"snapshot",
                                  "title":"(General)",
                                  "subject":{
                                     "reference":"Patient/2035c9f3-52db-46e4-a52c-0b41859b22e3",
                                     "type":"Patient"
                                  },
                                  "encounter":{
                                     "reference":"Encounter/ed6bb295-b8e1-45a2-b6f1-4a5cef3c78c7",
                                     "type":"Encounter",
                                     "display":"unknown"
                                  },
                                  "entry":[
                                     {
                                        "item":{
                                           "reference":"MedicationStatement/861e246b-544b-4668-81db-4a7f2e44e18b",
                                           "type":"MedicationStatement",
                                           "display":"Ibuprofen"
                                        }
                                     }
                                  ]
                               }
                            },
                            {
                               "fullUrl":"MedicationStatement/861e246b-544b-4668-81db-4a7f2e44e18b",
                               "resource":{
                                  "resourceType":"MedicationStatement",
                                  "id":"861e246b-544b-4668-81db-4a7f2e44e18b",
                                  "language":"en",
                                  "extension":[
                                     {
                                        "url":"http://hl7.org/fhir/StructureDefinition/derivation-reference",
                                        "extension":[
                                           {
                                              "url":"documentId",
                                              "valueString":"1"
                                           },
                                           {
                                              "url":"offset",
                                              "valueInteger":27
                                           },
                                           {
                                              "url":"length",
                                              "valueInteger":9
                                           }
                                        ]
                                     }
                                  ],
                                  "status":"active",
                                  "medicationCodeableConcept":{
                                     "coding":[
                                        {
                                           "system":"http://www.nlm.nih.gov/research/umls",
                                           "code":"C0020740",
                                           "display":"ibuprofen"
                                        },
                                        {
                                           "system":"http://www.nlm.nih.gov/research/umls/aod",
                                           "code":"0000019879"
                                        },
                                        {
                                           "system":"http://www.whocc.no/atc",
                                           "code":"M01AE01"
                                        },
                                        {
                                           "system":"http://www.nlm.nih.gov/research/umls/ccpss",
                                           "code":"0046165"
                                        },
                                        {
                                           "system":"http://www.nlm.nih.gov/research/umls/chv",
                                           "code":"0000006519"
                                        },
                                        {
                                           "system":"http://www.nlm.nih.gov/research/umls/csp",
                                           "code":"2270-2077"
                                        },
                                        {
                                           "system":"http://www.nlm.nih.gov/research/umls/drugbank",
                                           "code":"DB01050"
                                        },
                                        {
                                           "system":"http://www.nlm.nih.gov/research/umls/gs",
                                           "code":"1611"
                                        },
                                        {
                                           "system":"http://www.nlm.nih.gov/research/umls/lch_nw",
                                           "code":"sh97005926"
                                        },
                                        {
                                           "system":"http://loinc.org",
                                           "code":"LP16165-0"
                                        },
                                        {
                                           "system":"http://www.nlm.nih.gov/research/umls/medcin",
                                           "code":"40458"
                                        },
                                        {
                                           "system":"http://www.nlm.nih.gov/research/umls/mmsl",
                                           "code":"d00015"
                                        },
                                        {
                                           "system":"http://www.nlm.nih.gov/research/umls/msh",
                                           "code":"D007052"
                                        },
                                        {
                                           "system":"http://www.nlm.nih.gov/research/umls/mthspl",
                                           "code":"WK2XYI10QM"
                                        },
                                        {
                                           "system":"http://ncimeta.nci.nih.gov",
                                           "code":"C561"
                                        },
                                        {
                                           "system":"http://www.nlm.nih.gov/research/umls/nddf",
                                           "code":"002377"
                                        },
                                        {
                                           "system":"http://www.nlm.nih.gov/research/umls/pdq",
                                           "code":"CDR0000040475"
                                        },
                                        {
                                           "system":"http://www.nlm.nih.gov/research/umls/rcd",
                                           "code":"x02MO"
                                        },
                                        {
                                           "system":"http://www.nlm.nih.gov/research/umls/rxnorm",
                                           "code":"5640"
                                        },
                                        {
                                           "system":"http://www.nlm.nih.gov/research/umls/snm",
                                           "code":"E-7772"
                                        },
                                        {
                                           "system":"http://snomed.info/sct/900000000000207008",
                                           "code":"C-603C0"
                                        },
                                        {
                                           "system":"http://snomed.info/sct",
                                           "code":"387207008"
                                        },
                                        {
                                           "system":"http://www.nlm.nih.gov/research/umls/usp",
                                           "code":"m39860"
                                        },
                                        {
                                           "system":"http://www.nlm.nih.gov/research/umls/uspmg",
                                           "code":"MTHU000060"
                                        },
                                        {
                                           "system":"http://hl7.org/fhir/ndfrt",
                                           "code":"4017840"
                                        }
                                     ],
                                     "text":"Ibuprofen"
                                  },
                                  "subject":{
                                     "reference":"Patient/2035c9f3-52db-46e4-a52c-0b41859b22e3",
                                     "type":"Patient"
                                  },
                                  "context":{
                                     "reference":"Encounter/ed6bb295-b8e1-45a2-b6f1-4a5cef3c78c7",
                                     "type":"Encounter",
                                     "display":"unknown"
                                  },
                                  "dosage":[
                                     {
                                        "text":"200mg",
                                        "doseAndRate":[
                                           {
                                              "extension":[
                                                 {
                                                    "url":"http://hl7.org/fhir/StructureDefinition/derivation-reference",
                                                    "extension":[
                                                       {
                                                          "url":"documentId"
                                                       },
                                                       {
                                                          "url":"offset",
                                                          "valueInteger":21
                                                       },
                                                       {
                                                          "url":"length",
                                                          "valueInteger":5
                                                       }
                                                    ]
                                                 }
                                              ],
                                              "doseQuantity":{
                                                 "value":200
                                              }
                                           }
                                        ]
                                     }
                                  ]
                               }
                            },
                            {
                               "fullUrl":"Practitioner/a27a24c5-bd5e-4a1e-af4d-1434e683aa31",
                               "resource":{
                                  "resourceType":"Practitioner",
                                  "id":"a27a24c5-bd5e-4a1e-af4d-1434e683aa31",
                                  "extension":[
                                     {
                                        "url":"http://hl7.org/fhir/StructureDefinition/derivation-reference",
                                        "extension":[
                                           {
                                              "url":"documentId",
                                              "valueString":"1"
                                           },
                                           {
                                              "url":"offset",
                                              "valueInteger":-1
                                           },
                                           {
                                              "url":"length",
                                              "valueInteger":-1
                                           }
                                        ]
                                     }
                                  ],
                                  "name":[
                                     {
                                        "text":"Unknown",
                                        "family":"Unknown"
                                     }
                                  ]
                               }
                            }
                         ]
                      }
                   }
                ],
                "errors":[
                   
                ],
                "modelVersion":"2023-12-01"
             }
          }
       ]
    }
 }